{
  "metadata": {
    "name": "AE",
    "created": "2025-10-28T16:40:39.450174",
    "modified": "2025-10-28T16:40:39.450174",
    "version": "1.0"
  },
  "flow": {
    "version": "1.0",
    "nodes": [
      {
        "id": 2345921606224,
        "type": "DataInputNode",
        "title": "📥 ae.sas7bdat",
        "custom_name": null,
        "custom_description": null,
        "position": {
          "x": 50.0,
          "y": 50.0
        },
        "properties": {
          "filename": "ae.sas7bdat",
          "rows": 245,
          "columns": 131
        },
        "data": "<built-in method data of DataInputNode object at 0x000002172E82FD90>",
        "filename": "ae.sas7bdat",
        "file_path": "C:\\Users\\inarisetty\\sdtm_local\\sdtm_app\\raw\\ae.sas7bdat",
        "dataframe_info": {
          "shape": [
            245,
            131
          ],
          "columns": [
            "INVID",
            "SCRNID",
            "SUBJID",
            "SUBJINIT",
            "X_SUBJID",
            "SUBJECTID",
            "PROJECT",
            "STUDYSITEID",
            "SUBJECT",
            "SITEID",
            "SITENUMBER",
            "INSTANCEID",
            "INSTANCENAME",
            "INSTANCEREPEATNUMBER",
            "FOLDER",
            "FOLDERNAME",
            "FOLDERSEQ",
            "DATAPAGEID",
            "DATAPAGENAME",
            "PAGEREPEATNUMBER",
            "RECORDDATE",
            "RECORDID",
            "RECORDPOSITION",
            "MINCREATED",
            "MAXUPDATED",
            "STUDYENVSITENUMBER",
            "DLASTMOD",
            "AETERM",
            "AESER",
            "AESER_STD",
            "AEIRR",
            "AEIRR_STD",
            "AESTDAT",
            "AESTDAT_RAW",
            "AESTDAT_YYYY",
            "AESTDAT_MM",
            "AESTDAT_DD",
            "AESTTIM",
            "AEENDAT",
            "AEENDAT_RAW",
            "AEENDAT_YYYY",
            "AEENDAT_MM",
            "AEENDAT_DD",
            "AEENTIM",
            "AEONGO",
            "AEONGO_STD",
            "AERELDRV",
            "AERELDRV_STD",
            "AEREL",
            "AEREL_STD",
            "AEREL2",
            "AEREL2_STD",
            "AEREL1",
            "AEREL1_STD",
            "AEREL3",
            "AEREL3_STD",
            "AEREL4",
            "AEREL4_STD",
            "AERELPRC",
            "AERELPRC_STD",
            "AEACN",
            "AEACN_STD",
            "AEACN1",
            "AEACN1_STD",
            "AEACN2",
            "AEACN2_STD",
            "AEACN3",
            "AEACN3_STD",
            "AEACNOTH5",
            "AEACNOTH5_RAW",
            "AETOXGR",
            "AETOXGR_STD",
            "CASENO",
            "CASENO_STD",
            "OLDCASE",
            "REP_SMTP",
            "AESDTH",
            "AESDTH_STD",
            "AESLIFE",
            "AESLIFE_STD",
            "AESHOSP",
            "AESHOSP_STD",
            "AEHSTDAT",
            "AEHSTDAT_RAW",
            "AEHSTDAT_YYYY",
            "AEHSTDAT_MM",
            "AEHSTDAT_DD",
            "AEHENDAT",
            "AEHENDAT_RAW",
            "AEHENDAT_YYYY",
            "AEHENDAT_MM",
            "AEHENDAT_DD",
            "AESDISAB",
            "AESDISAB_STD",
            "AESCONG",
            "AESCONG_STD",
            "AESMIE",
            "AESMIE_STD",
            "AEALTCAU",
            "AEDISEAS",
            "AEDISEAS_RAW",
            "AEPRECON",
            "AEPRECON_RAW",
            "AEINTER",
            "AEINTER_RAW",
            "AECM",
            "AECM_RAW",
            "AECMSPEC",
            "AEOTH",
            "AEOTH_RAW",
            "AEOTHSP",
            "AEOUT",
            "AEOUT_STD",
            "AERLPRBX",
            "AERLPRBX_STD",
            "DICTION",
            "DIC_VER",
            "MDRLLTC",
            "MDRLLT",
            "MDRPTC",
            "MDRPT",
            "MDRHLTC",
            "MDRHLT",
            "MDRHLGTC",
            "MDRHLGT",
            "MDRSOCC",
            "MDRSOC",
            "QUERY",
            "AMBIG",
            "PDIRAE",
            "PD1SKTOX"
          ]
        }
      },
      {
        "id": 2345921609424,
        "type": "DataInputNode",
        "title": "📥 aes.sas7bdat",
        "custom_name": null,
        "custom_description": null,
        "position": {
          "x": 41.83879632237553,
          "y": 186.72541654931024
        },
        "properties": {
          "filename": "aes.sas7bdat",
          "rows": 28,
          "columns": 29
        },
        "data": "<built-in method data of DataInputNode object at 0x000002174F2144B0>",
        "filename": "aes.sas7bdat",
        "file_path": "C:\\Users\\inarisetty\\sdtm_local\\sdtm_app\\raw\\aes.sas7bdat",
        "dataframe_info": {
          "shape": [
            28,
            29
          ],
          "columns": [
            "INVID",
            "SCRNID",
            "SUBJID",
            "SUBJINIT",
            "X_SUBJID",
            "SUBJECTID",
            "PROJECT",
            "STUDYSITEID",
            "SUBJECT",
            "SITEID",
            "SITENUMBER",
            "INSTANCEID",
            "INSTANCENAME",
            "INSTANCEREPEATNUMBER",
            "FOLDER",
            "FOLDERNAME",
            "FOLDERSEQ",
            "DATAPAGEID",
            "DATAPAGENAME",
            "PAGEREPEATNUMBER",
            "RECORDDATE",
            "RECORDID",
            "RECORDPOSITION",
            "MINCREATED",
            "MAXUPDATED",
            "STUDYENVSITENUMBER",
            "DLASTMOD",
            "AEYN",
            "AEYN_STD"
          ]
        }
      },
      {
        "id": 2345997255856,
        "type": "DataInputNode",
        "title": "📥 dm.sas7bdat",
        "custom_name": null,
        "custom_description": null,
        "position": {
          "x": 62.24180551643674,
          "y": 322.09063248568305
        },
        "properties": {
          "filename": "dm.sas7bdat",
          "rows": 33,
          "columns": 51
        },
        "data": "<built-in method data of DataInputNode object at 0x000002174F214C30>",
        "filename": "dm.sas7bdat",
        "file_path": "C:\\Users\\inarisetty\\sdtm_local\\sdtm_app\\raw\\dm.sas7bdat",
        "dataframe_info": {
          "shape": [
            33,
            51
          ],
          "columns": [
            "INVID",
            "SCRNID",
            "SUBJID",
            "SUBJINIT",
            "X_SUBJID",
            "SUBJECTID",
            "PROJECT",
            "STUDYSITEID",
            "SUBJECT",
            "SITEID",
            "SITENUMBER",
            "INSTANCEID",
            "INSTANCENAME",
            "INSTANCEREPEATNUMBER",
            "FOLDER",
            "FOLDERNAME",
            "FOLDERSEQ",
            "DATAPAGEID",
            "DATAPAGENAME",
            "PAGEREPEATNUMBER",
            "RECORDDATE",
            "RECORDID",
            "RECORDPOSITION",
            "MINCREATED",
            "MAXUPDATED",
            "STUDYENVSITENUMBER",
            "DLASTMOD",
            "BRTHYR",
            "BRTHYR_RAW",
            "BRTHYR_YYYY",
            "BRTHYR_MM",
            "BRTHYR_DD",
            "BRTHDAT",
            "BRTHDAT_RAW",
            "BRTHDAT_YYYY",
            "BRTHDAT_MM",
            "BRTHDAT_DD",
            "AGE_REP",
            "AGE_REP_RAW",
            "AGEU",
            "SEX",
            "SEX_STD",
            "RACE",
            "RACE_STD",
            "RACEOTH",
            "ETHNIC",
            "ETHNIC_STD",
            "COUNTRY",
            "COUNTRY_STD",
            "REP_SMTP",
            "BRTHIMDT"
          ]
        }
      },
      {
        "id": 2346506314096,
        "type": "ColumnRenamerNode",
        "title": "🏷️ Renamer",
        "custom_name": "test1",
        "custom_description": null,
        "position": {
          "x": 321.78211535243906,
          "y": 0.0
        },
        "properties": {
          "mappings": {
            "X_SUBJID": "USUBJID",
            "AESER": "AESER_CRF",
            "AEREL": "AEREL_CRF",
            "AESCONG": "AESCONG_CRF",
            "AEOUT": "AEOUT_CRF",
            "AETERM": "AETERM1"
          }
        },
        "data": "<built-in method data of ColumnRenamerNode object at 0x000002174F214F50>"
      },
      {
        "id": 2831340984816,
        "type": "RowFilterNode",
        "title": "🔍 Row Filter",
        "custom_name": null,
        "custom_description": null,
        "position": {
          "x": 464.50850931812727,
          "y": 3.400501532343533
        },
        "properties": {
          "filter_column": "SUBJID",
          "filter_operator": "is not missing",
          "filter_value": "",
          "case_sensitive": false,
          "output_mode": "matching",
          "conditions": [],
          "logic_operator": "AND",
          "use_multiple_conditions": false
        },
        "data": "<built-in method data of RowFilterNode object at 0x000002174F2153B0>"
      }
    ],
    "connections": [
      {
        "start_node": 2345921606224,
        "end_node": 2346506314096,
        "start_port": "output",
        "end_port": "input"
      },
      {
        "start_node": 2346506314096,
        "end_node": 2831340984816,
        "start_port": "output",
        "end_port": "input"
      }
    ],
    "summary": {
      "node_count": 5,
      "connection_count": 2,
      "node_types": [
        "DataInputNode",
        "DataInputNode",
        "DataInputNode",
        "ColumnRenamerNode",
        "RowFilterNode"
      ],
      "custom_names": [
        "test1"
      ]
    }
  }
}